product_id,version,image_path,thisN,thisTrialN,thisRepN,ratingSlider.response,ratingSlider.rt,ratingMouse.x,ratingMouse.y,ratingMouse.leftButton,ratingMouse.midButton,ratingMouse.rightButton,ratingMouse.time,memoryKey.keys,memoryKey.rt,memoryKey.duration,main_loop.thisRepN,main_loop.thisTrialN,main_loop.thisN,main_loop.thisIndex,thisRow.t,notes,Welcome.started,text_welcome.started,key_resp.started,Welcome.stopped,key_resp.keys,key_resp.rt,key_resp.duration,instructions.started,text_instructions.started,key_resp_instructions.started,instructions.stopped,key_resp_instructions.keys,key_resp_instructions.rt,key_resp_instructions.duration,setOrder.started,setOrder.stopped,fixation.started,text_fixation.started,fixation.stopped,ratingTrial.started,productImage.started,questionText.started,ratingValueText.started,ratingSlider.started,sliderCover.started,ratingMouse.started,leftAnchor.started,rightAnchor.started,warningText.started,ratingTrial.stopped,liking,liking_initMouse,liking_RT,taste,taste_initMouse,taste_RT,health,health_initMouse,health_RT,main_loop.ratingSlider.response,main_loop.ratingSlider.rt,main_loop.ratingMouse.x,main_loop.ratingMouse.y,main_loop.ratingMouse.leftButton,main_loop.ratingMouse.midButton,main_loop.ratingMouse.rightButton,main_loop.ratingMouse.time,memory_count_now,memory_target_now,memoryTrial.started,memoryTrial.stopped,memory_correct_product,memory_chosen,memory_accuracy,memory_RT,main_loop.memoryKey.keys,text_fixation.stopped,memoryQuestion.started,opt1Text.started,opt2Text.started,opt3Text.started,memoryKey.started,main_loop.memoryKey.rt,main_loop.memoryKey.duration,thanks.started,endText.started,endKey.started,thanks.stopped,endKey.keys,endKey.rt,endKey.duration,participant_ID,age,date,expName,expVersion,psychopyVersion,frameRate,expStart,
,,,,,,,,,,,,,,,,,,,,,,,0.022397708000426064,0.24783550000029209,0.24783550000029209,0.6312085830004435,space,0.37118412499967235,None,,,,,,,,,,,,,,,,,,,,,,,,,,,,,,,,,,,,,,,,,,,,,,,,,,,,,,,,,,,,,,,,,tt,k,2026-03-16_12h30.34.921,products_online,,2025.1.1,120.23825113377137,2026-03-16 12h30.44.195487 +0200,
,,,,,,,,,,,,,,,,,,,,,,,,,,,,,,0.6313069170000745,0.6433860830002232,0.6433860830002232,1.2146807079998325,space,0.5686757499997839,None,,,,,,,,,,,,,,,,,,,,,,,,,,,,,,,,,,,,,,,,,,,,,,,,,,,,,,,,,,tt,k,2026-03-16_12h30.34.921,products_online,,2025.1.1,120.23825113377137,2026-03-16 12h30.44.195487 +0200,
,,,,,,,,,,,,,,,,,,,,,,,,,,,,,,,,,,,,,1.2449989169999753,1.2450205420000202,,,,,,,,,,,,,,,,,,,,,,,,,,,,,,,,,,,,,,,,,,,,,,,,,,,,,,,,tt,k,2026-03-16_12h30.34.921,products_online,,2025.1.1,120.23825113377137,2026-03-16 12h30.44.195487 +0200,
WaffleCrisp,original,taste&health/WaffleCrisp_original.png,0,0,0,None,None,"[np.float64(0.09), np.float64(-0.04)]","[np.float64(-0.33), np.float64(-0.5)]","[1, 1]","[0, 0]","[0, 0]","[9.718769000000066, 11.065467000000353]",None,,,0,0,0,0,1.2604257080001844,,,,,,,,,,,,,,,,,,1.250191041999642,1.2604257080001844,1.7468725420003466,1.8174236249997193,1.865488749999713,1.865488749999713,1.865488749999713,12.10385716699966,1.865488749999713,0.07243591699989338,1.865488749999713,1.865488749999713,1.865488749999713,12.884836500000347,None,4.9,None,4.4,4.4,0.20520624999971915,3.1,3.8,0.8067653329999303,None,None,"[np.float64(0.09), np.float64(-0.04)]","[np.float64(-0.33), np.float64(-0.5)]","[1, 1]","[0, 0]","[0, 0]","[9.718769000000066, 11.065467000000353]",,,12.885055583000394,12.885097250000399,,,,,None,,,,,,,,,,,,,,,,tt,k,2026-03-16_12h30.34.921,products_online,,2025.1.1,120.23825113377137,2026-03-16 12h30.44.195487 +0200,
CocaColaZero,taste,taste&health/CocaColaZero_taste.png,1,1,0,None,None,"[np.float64(0.33666666666666667), np.float64(-0.19444444444444445), np.float64(0.14777777777777779)]","[np.float64(-0.33), np.float64(-0.33), np.float64(-0.33)]","[1, 1, 1]","[0, 0, 0]","[0, 0, 0]","[0.4057697919997736, 1.040212292000433, 1.7522600829997828]",None,,,0,1,1,1,12.897608375000345,,,,,,,,,,,,,,,,,,12.885247457999867,12.897608375000345,13.380754750000051,13.43343058299979,13.456611374999738,13.456611374999738,13.456611374999738,15.098553458000424,13.456611374999738,0.04833287499968719,13.456611374999738,13.456611374999738,13.456611374999738,15.187192000000323,1.6,1.6,0.10000058300011005,1.6,4.9,0.1139975410005718,6.8,6.8,0.45156375000078697,None,None,"[np.float64(0.33666666666666667), np.float64(-0.19444444444444445), np.float64(0.14777777777777779)]","[np.float64(-0.33), np.float64(-0.33), np.float64(-0.33)]","[1, 1, 1]","[0, 0, 0]","[0, 0, 0]","[0.4057697919997736, 1.040212292000433, 1.7522600829997828]",1,2,15.187377207999816,15.187412750000476,,,,,None,13.456611374999738,,,,,,,,,,,,,,,tt,k,2026-03-16_12h30.34.921,products_online,,2025.1.1,120.23825113377137,2026-03-16 12h30.44.195487 +0200,
Nutella,taste,taste&health/Nutella_taste.png,2,2,0,None,None,"[np.float64(0.21555555555555556), np.float64(0.21555555555555556), np.float64(0.21555555555555556), np.float64(-0.03777777777777778), np.float64(-0.03777777777777778), np.float64(0.18666666666666668)]","[np.float64(-0.33), np.float64(-0.33), np.float64(-0.33), np.float64(-0.33), np.float64(-0.33), np.float64(-0.33)]","[1, 1, 1, 1, 1, 1]","[0, 0, 0, 0, 0, 0]","[0, 0, 0, 0, 0, 0]","[0.07900245800010453, 0.31196204099978786, 0.541854166000121, 0.8413793330000772, 1.1145558749994962, 1.3965527499995005]",None,,,0,2,2,2,15.196951582999645,,,,,,,,,,,,,,,,,,15.1875385000003,15.196951582999645,15.680825708000157,15.742523582999638,15.766930957999648,15.766930957999648,15.766930957999648,17.139631707999797,15.766930957999648,0.05513070900087769,15.766930957999648,15.766930957999648,15.766930957999648,17.141289000000143,3.1,3.1,0.2328680410000743,5.3,5.3,0.026437999999870954,5.6,5.6,0.1262125000002925,None,None,"[np.float64(0.21555555555555556), np.float64(0.21555555555555556), np.float64(0.21555555555555556), np.float64(-0.03777777777777778), np.float64(-0.03777777777777778), np.float64(0.18666666666666668)]","[np.float64(-0.33), np.float64(-0.33), np.float64(-0.33), np.float64(-0.33), np.float64(-0.33), np.float64(-0.33)]","[1, 1, 1, 1, 1, 1]","[0, 0, 0, 0, 0, 0]","[0, 0, 0, 0, 0, 0]","[0.07900245800010453, 0.31196204099978786, 0.541854166000121, 0.8413793330000772, 1.1145558749994962, 1.3965527499995005]",1,3,17.14153158299996,17.141567499999837,,,,,None,15.766930957999648,,,,,,,,,,,,,,,tt,k,2026-03-16_12h30.34.921,products_online,,2025.1.1,120.23825113377137,2026-03-16 12h30.44.195487 +0200,
Tapuchips,original,taste&health/Tapuchips_original.png,3,3,0,4.3,0.03505645800032653,"[np.float64(-0.24222222222222223), np.float64(0.17222222222222222), np.float64(0.17222222222222222), np.float64(0.07777777777777778)]","[np.float64(-0.33), np.float64(-0.33), np.float64(-0.33111111111111113), np.float64(-0.33111111111111113)]","[1, 1, 1, 1]","[0, 0, 0, 0]","[0, 0, 0, 0]","[0.2798517500004891, 0.9211416660000395, 1.376065541000571, 1.8397447080005804]",None,,,0,3,3,3,17.147282625000116,,,,,,,,,,,,,,,,,,17.141694666999683,17.147282625000116,17.631382874999872,17.693725375000213,17.719157417000133,17.719157417000133,17.719157417000133,19.187133166999956,17.719157417000133,0.052175582999552717,17.719157417000133,17.719157417000133,17.719157417000133,19.536864167000203,4.3,4.3,0.37618183300037344,5.2,5.2,0.11183625000012398,1.1,1.2,0.3276203750001514,4.3,0.03505645800032653,"[np.float64(-0.24222222222222223), np.float64(0.17222222222222222), np.float64(0.17222222222222222), np.float64(0.07777777777777778)]","[np.float64(-0.33), np.float64(-0.33), np.float64(-0.33111111111111113), np.float64(-0.33111111111111113)]","[1, 1, 1, 1]","[0, 0, 0, 0]","[0, 0, 0, 0]","[0.2798517500004891, 0.9211416660000395, 1.376065541000571, 1.8397447080005804]",1,3,19.53706074999991,19.537105542000063,,,,,None,17.719157417000133,,,,,,,,,,,,,,,tt,k,2026-03-16_12h30.34.921,products_online,,2025.1.1,120.23825113377137,2026-03-16 12h30.44.195487 +0200,
Nutella,original,taste&health/Nutella_original.png,4,4,0,None,None,"[np.float64(0.08777777777777777), np.float64(0.08777777777777777), np.float64(0.29555555555555557), np.float64(0.29555555555555557), np.float64(0.3411111111111111)]","[np.float64(-0.33111111111111113), np.float64(-0.3322222222222222), np.float64(-0.33111111111111113), np.float64(-0.33111111111111113), np.float64(-0.33)]","[1, 1, 1, 1, 1]","[0, 0, 0, 0, 0]","[0, 0, 0, 0, 0]","[0.2854924169996593, 0.6353572500001974, 1.115983624999899, 1.4486045840003499, 1.9652696670000296]",None,,,0,4,4,4,19.5471666250005,,,,,,,,,,,,,,,,,,19.537239166999825,19.5471666250005,20.030969250000453,20.091808041999684,20.116425917000015,20.116425917000015,20.116425917000015,21.764546207999956,20.116425917000015,0.05471895799928461,20.116425917000015,20.116425917000015,20.116425917000015,22.05920341700039,6.4,6.4,0.3052039579997654,6.8,6.8,0.31964295899979334,4.4,4.4,0.33164183299959404,None,None,"[np.float64(0.08777777777777777), np.float64(0.08777777777777777), np.float64(0.29555555555555557), np.float64(0.29555555555555557), np.float64(0.3411111111111111)]","[np.float64(-0.33111111111111113), np.float64(-0.3322222222222222), np.float64(-0.33111111111111113), np.float64(-0.33111111111111113), np.float64(-0.33)]","[1, 1, 1, 1, 1]","[0, 0, 0, 0, 0]","[0, 0, 0, 0, 0]","[0.2854924169996593, 0.6353572500001974, 1.115983624999899, 1.4486045840003499, 1.9652696670000296]",2,3,22.05941937500029,22.059455833000357,,,,,None,20.116425917000015,,,,,,,,,,,,,,,tt,k,2026-03-16_12h30.34.921,products_online,,2025.1.1,120.23825113377137,2026-03-16 12h30.44.195487 +0200,
TimTam,original,taste&health/TimTam_original.png,5,5,0,None,None,"[np.float64(-0.19444444444444445), np.float64(-0.19444444444444445), np.float64(-0.19444444444444445), np.float64(-0.06), np.float64(0.044444444444444446)]","[np.float64(-0.33), np.float64(-0.33), np.float64(-0.33), np.float64(-0.33), np.float64(-0.33)]","[1, 1, 1, 1, 1]","[0, 0, 0, 0, 0]","[0, 0, 0, 0, 0]","[0.22559737500068877, 0.4782426250003482, 0.7536903750005877, 1.0787943330005874, 1.4358831250001458]",None,,,0,5,5,5,22.065057792000516,,,,,,,,,,,,,,,,,,22.059583332999864,22.065057792000516,22.547694707999653,22.590002916999765,22.613764042000184,22.613764042000184,22.613764042000184,23.934767374999865,22.613764042000184,0.030568125000172586,22.613764042000184,22.613764042000184,22.613764042000184,24.02752720799981,1.6,2.9,0.03048099999978149,1.6,1.6,0.2609503749999931,3.9,3.9,0.11729437499980122,None,None,"[np.float64(-0.19444444444444445), np.float64(-0.19444444444444445), np.float64(-0.19444444444444445), np.float64(-0.06), np.float64(0.044444444444444446)]","[np.float64(-0.33), np.float64(-0.33), np.float64(-0.33), np.float64(-0.33), np.float64(-0.33)]","[1, 1, 1, 1, 1]","[0, 0, 0, 0, 0]","[0, 0, 0, 0, 0]","[0.22559737500068877, 0.4782426250003482, 0.7536903750005877, 1.0787943330005874, 1.4358831250001458]",,,24.02776545800043,24.0277998749998,,,,,None,22.613764042000184,,,,,,,,,,,,,,,tt,k,2026-03-16_12h30.34.921,products_online,,2025.1.1,120.23825113377137,2026-03-16 12h30.44.195487 +0200,
WaffleCrisp,health,taste&health/WaffleCrisp_health.png,6,6,0,None,None,"[np.float64(-0.02666666666666667), np.float64(-0.02666666666666667), np.float64(-0.22555555555555556), np.float64(-0.22555555555555556), np.float64(-0.12333333333333334)]","[np.float64(-0.33111111111111113), np.float64(-0.33111111111111113), np.float64(-0.33), np.float64(-0.33), np.float64(-0.33)]","[1, 1, 1, 1, 1]","[0, 0, 0, 0, 0]","[0, 0, 0, 0, 0]","[0.3214533329992264, 0.7177241249992221, 1.0856863330000124, 1.4223969169997872, 1.7551613749992612]",None,,,0,6,6,6,24.03535662500053,,,,,,,,,,,,,,,,,,24.027926833000492,24.03535662500053,24.520729208000375,24.573452917000395,24.598843583000416,24.598843583000416,24.598843583000416,26.219618416999765,24.598843583000416,0.04567070800021611,24.598843583000416,24.598843583000416,24.598843583000416,26.330953749999935,2.3,2.3,0.1360835830000724,3.2,3.2,0.3590292500002761,1.3,1.3,0.23521350000009988,None,None,"[np.float64(-0.02666666666666667), np.float64(-0.02666666666666667), np.float64(-0.22555555555555556), np.float64(-0.22555555555555556), np.float64(-0.12333333333333334)]","[np.float64(-0.33111111111111113), np.float64(-0.33111111111111113), np.float64(-0.33), np.float64(-0.33), np.float64(-0.33)]","[1, 1, 1, 1, 1]","[0, 0, 0, 0, 0]","[0, 0, 0, 0, 0]","[0.3214533329992264, 0.7177241249992221, 1.0856863330000124, 1.4223969169997872, 1.7551613749992612]",,,26.331174083000406,26.331208667000283,,,,,None,24.598843583000416,,,,,,,,,,,,,,,tt,k,2026-03-16_12h30.34.921,products_online,,2025.1.1,120.23825113377137,2026-03-16 12h30.44.195487 +0200,
Cornflakes,health,taste&health/Cornflakes_health.png,7,7,0,6.7,0.03544754099948477,"[np.float64(-0.18777777777777777), np.float64(0.21444444444444444), np.float64(0.21444444444444444), np.float64(0.32555555555555554)]","[np.float64(-0.33), np.float64(-0.33), np.float64(-0.33), np.float64(-0.33111111111111113)]","[1, 1, 1, 1]","[0, 0, 0, 0]","[0, 0, 0, 0]","[0.32073058300011326, 0.8483212080000158, 1.256748042000254, 1.7715611670000726]",None,,,0,7,7,7,26.336430250000376,,,,,,,,,,,,,,,,,,26.33133700000053,26.336430250000376,26.820090832999995,26.868822292000004,26.89286083299976,26.89286083299976,26.89286083299976,28.306555500000286,26.89286083299976,0.03763008300029469,26.89286083299976,26.89286083299976,26.89286083299976,28.641928208000536,6.7,6.7,0.3621878750000178,5.6,5.6,0.027359249999790336,1.7,1.7,0.3538822919999802,6.7,0.03544754099948477,"[np.float64(-0.18777777777777777), np.float64(0.21444444444444444), np.float64(0.21444444444444444), np.float64(0.32555555555555554)]","[np.float64(-0.33), np.float64(-0.33), np.float64(-0.33), np.float64(-0.33111111111111113)]","[1, 1, 1, 1]","[0, 0, 0, 0]","[0, 0, 0, 0]","[0.32073058300011326, 0.8483212080000158, 1.256748042000254, 1.7715611670000726]",,,28.642148042000372,28.642183582999678,,,,,None,26.89286083299976,,,,,,,,,,,,,,,tt,k,2026-03-16_12h30.34.921,products_online,,2025.1.1,120.23825113377137,2026-03-16 12h30.44.195487 +0200,
TimTam,taste,taste&health/TimTam_taste.png,8,8,0,5.2,0.03479491699999926,"[np.float64(-0.03333333333333333), np.float64(0.16555555555555557), np.float64(0.17)]","[np.float64(-0.33), np.float64(-0.33111111111111113), np.float64(-0.33)]","[1, 1, 1]","[0, 0, 0]","[0, 0, 0]","[0.3372460840000713, 0.8563097500000367, 1.5605538340005296]",None,,,0,8,8,8,28.647999875000096,,,,,,,,,,,,,,,,,,28.64231508300054,28.647999875000096,29.131086833000154,29.175668417000452,29.200883417000114,29.200883417000114,29.200883417000114,30.604959000000235,29.200883417000114,0.03350550000050134,29.200883417000114,29.200883417000114,29.200883417000114,30.737934583000424,3.2,3.2,0.037218292000034126,5.1,5.1,0.3228599169997324,5.2,5.2,0.15948775000015303,5.2,0.03479491699999926,"[np.float64(-0.03333333333333333), np.float64(0.16555555555555557), np.float64(0.17)]","[np.float64(-0.33), np.float64(-0.33111111111111113), np.float64(-0.33)]","[1, 1, 1]","[0, 0, 0]","[0, 0, 0]","[0.3372460840000713, 0.8563097500000367, 1.5605538340005296]",,,30.73812474999977,30.738160042000345,,,,,None,29.200883417000114,,,,,,,,,,,,,,,tt,k,2026-03-16_12h30.34.921,products_online,,2025.1.1,120.23825113377137,2026-03-16 12h30.44.195487 +0200,
WaffleCrisp,taste,taste&health/WaffleCrisp_taste.png,9,9,0,6.2,0.03484616700006882,"[np.float64(-0.18333333333333332), np.float64(-0.18333333333333332), np.float64(-0.32222222222222224), np.float64(-0.32222222222222224), np.float64(0.28)]","[np.float64(-0.33111111111111113), np.float64(-0.3322222222222222), np.float64(-0.33111111111111113), np.float64(-0.33111111111111113), np.float64(-0.33111111111111113)]","[1, 1, 1, 1, 1]","[0, 0, 0, 0, 0]","[0, 0, 0, 0, 0]","[0.3376246669995453, 0.736098082999888, 1.1743205419998048, 1.5769721669994397, 2.061320374999923]",None,,,0,9,9,9,30.748059374999684,,,,,,,,,,,,,,,,,,30.73828812500051,30.748059374999684,31.231321707999996,31.279484917000445,31.303855250000197,31.303855250000197,31.303855250000197,33.016416749999735,31.303855250000197,0.0413434590000179,31.303855250000197,31.303855250000197,31.303855250000197,33.343091249999816,0.4,0.4,0.3060891660006746,6.2,6.2,0.35312366699963604,1.7,1.7,0.3776768749994517,6.2,0.03484616700006882,"[np.float64(-0.18333333333333332), np.float64(-0.18333333333333332), np.float64(-0.32222222222222224), np.float64(-0.32222222222222224), np.float64(0.28)]","[np.float64(-0.33111111111111113), np.float64(-0.3322222222222222), np.float64(-0.33111111111111113), np.float64(-0.33111111111111113), np.float64(-0.33111111111111113)]","[1, 1, 1, 1, 1]","[0, 0, 0, 0, 0]","[0, 0, 0, 0, 0]","[0.3376246669995453, 0.736098082999888, 1.1743205419998048, 1.5769721669994397, 2.061320374999923]",,,33.34334366700023,33.34338099999968,,,,,None,31.303855250000197,,,,,,,,,,,,,,,tt,k,2026-03-16_12h30.34.921,products_online,,2025.1.1,120.23825113377137,2026-03-16 12h30.44.195487 +0200,
TimTam,health,taste&health/TimTam_health.png,10,10,0,None,None,"[np.float64(-0.2733333333333333), np.float64(-0.2733333333333333), np.float64(-0.05444444444444444)]","[np.float64(-0.33), np.float64(-0.33), np.float64(-0.33)]","[1, 1, 1]","[0, 0, 0]","[0, 0, 0]","[0.11732487500012212, 0.5999685420001697, 1.2006110840002293]",None,,,0,10,10,10,33.36417979199996,,,,,,,,,,,,,,,,,,33.343508541999654,33.36417979199996,33.848286958000244,33.89662175000012,33.92342641699997,33.92342641699997,33.92342641699997,35.12734199999977,33.92342641699997,0.053261499999280204,33.92342641699997,33.92342641699997,33.92342641699997,35.13098670799991,3.0,3.0,0.02760254199984047,3.0,1.0,0.0305941669994354,0.8,0.9,0.15322412500063365,None,None,"[np.float64(-0.2733333333333333), np.float64(-0.2733333333333333), np.float64(-0.05444444444444444)]","[np.float64(-0.33), np.float64(-0.33), np.float64(-0.33)]","[1, 1, 1]","[0, 0, 0]","[0, 0, 0]","[0.11732487500012212, 0.5999685420001697, 1.2006110840002293]",,,35.131175542000165,35.13121216699983,,,,,None,,,,,,,,,,,,,,,,tt,k,2026-03-16_12h30.34.921,products_online,,2025.1.1,120.23825113377137,2026-03-16 12h30.44.195487 +0200,
Nutella,health,taste&health/Nutella_health.png,11,11,0,None,None,"[np.float64(0.18), np.float64(-0.04777777777777778)]","[np.float64(-0.33), np.float64(-0.33)]","[1, 1]","[0, 0]","[0, 0]","[0.4675869580005383, 1.0232707920004032]",1,1.7983553340000071,None,0,11,11,11,35.13573862500016,,,,,,,,,,,,,,,,,,35.131340875000205,35.13573862500016,35.623647708000135,35.67761312499988,35.70233758300037,35.70233758300037,35.70233758300037,36.79477204199975,35.70233758300037,0.04641837500003021,35.70233758300037,35.70233758300037,35.70233758300037,36.796202374999666,0.2,0.2,0.026903708000645565,5.3,5.3,0.04734116700001323,3.0,3.0,0.027108041999781562,None,None,"[np.float64(0.18), np.float64(-0.04777777777777778)]","[np.float64(-0.33), np.float64(-0.33)]","[1, 1]","[0, 0]","[0, 0]","[0.4675869580005383, 1.0232707920004032]",3,3,36.81418916700022,38.62216120799985,Nutella,Nutella,1,1.7983553340000071,1,35.70233758300037,36.822169750000285,36.822169750000285,36.822169750000285,36.822169750000285,36.822169750000285,1.7983553340000071,None,,,,,,,,tt,k,2026-03-16_12h30.34.921,products_online,,2025.1.1,120.23825113377137,2026-03-16 12h30.44.195487 +0200,
Tapuchips,taste,taste&health/Tapuchips_taste.png,12,12,0,3.9,0.03345141699992382,"[np.float64(-0.20333333333333334), np.float64(-0.20333333333333334), np.float64(-0.015555555555555555), np.float64(-0.015555555555555555), np.float64(0.04111111111111111)]","[np.float64(-0.33), np.float64(-0.33), np.float64(-0.33), np.float64(-0.33), np.float64(-0.33)]","[1, 1, 1, 1, 1]","[0, 0, 0, 0, 0]","[0, 0, 0, 0, 0]","[0.2679655840001942, 0.6856521250001606, 1.1047731670005305, 1.4860195000001113, 1.944354000000203]",None,,,0,12,12,12,38.63113433299986,,,,,,,,,,,,,,,,,,38.622463374999825,38.63113433299986,39.11501529199995,39.171465125000395,39.19756558300014,39.19756558300014,39.19756558300014,40.834760417000325,39.19756558300014,0.049265749999904074,39.19756558300014,39.19756558300014,39.19756558300014,41.11739241699979,1.5,1.5,0.31250550000004296,3.9,3.9,0.3077720000001136,3.3,3.4,0.31000200000016775,3.9,0.03345141699992382,"[np.float64(-0.20333333333333334), np.float64(-0.20333333333333334), np.float64(-0.015555555555555555), np.float64(-0.015555555555555555), np.float64(0.04111111111111111)]","[np.float64(-0.33), np.float64(-0.33), np.float64(-0.33), np.float64(-0.33), np.float64(-0.33)]","[1, 1, 1, 1, 1]","[0, 0, 0, 0, 0]","[0, 0, 0, 0, 0]","[0.2679655840001942, 0.6856521250001606, 1.1047731670005305, 1.4860195000001113, 1.944354000000203]",2,3,41.117633957999715,41.11766966699997,,,,,None,39.19756558300014,,,,,,,,,,,,,,,tt,k,2026-03-16_12h30.34.921,products_online,,2025.1.1,120.23825113377137,2026-03-16 12h30.44.195487 +0200,
Tamar,health,taste&health/Tamar_health.png,13,13,0,0.7,0.008423833000051673,"[np.float64(0.29), np.float64(0.29), np.float64(-0.23666666666666666), np.float64(-0.23666666666666666), np.float64(-0.28888888888888886)]","[np.float64(-0.33), np.float64(-0.33111111111111113), np.float64(-0.33), np.float64(-0.33111111111111113), np.float64(-0.33)]","[1, 1, 1, 1, 1]","[0, 0, 0, 0, 0]","[0, 0, 0, 0, 0]","[0.17662558299980446, 0.5170222079996165, 0.8844162909999795, 1.245859957999528, 1.679027249999308]",None,,,0,13,13,13,41.12278770800003,,,,,,,,,,,,,,,,,,41.11781229200005,41.12278770800003,41.6151661670001,41.66973679199964,41.694360792000225,41.694360792000225,41.694360792000225,43.11559766699975,41.694360792000225,0.05208295900047233,41.694360792000225,41.694360792000225,41.694360792000225,43.35031212500053,6.3,6.3,0.20911870800046017,0.7,0.7,0.2605815420001818,1.2,1.2,0.1746084169999449,0.7,0.008423833000051673,"[np.float64(0.29), np.float64(0.29), np.float64(-0.23666666666666666), np.float64(-0.23666666666666666), np.float64(-0.28888888888888886)]","[np.float64(-0.33), np.float64(-0.33111111111111113), np.float64(-0.33), np.float64(-0.33111111111111113), np.float64(-0.33)]","[1, 1, 1, 1, 1]","[0, 0, 0, 0, 0]","[0, 0, 0, 0, 0]","[0.17662558299980446, 0.5170222079996165, 0.8844162909999795, 1.245859957999528, 1.679027249999308]",,,43.35054237500026,43.35058079200007,,,,,None,41.694360792000225,,,,,,,,,,,,,,,tt,k,2026-03-16_12h30.34.921,products_online,,2025.1.1,120.23825113377137,2026-03-16 12h30.44.195487 +0200,
XL,health,taste&health/XL_health.png,14,14,0,2.7,0.035029499999836844,"[np.float64(0.27111111111111114), np.float64(0.27111111111111114), np.float64(-0.008888888888888889), np.float64(-0.008888888888888889), np.float64(-0.08222222222222222)]","[np.float64(-0.33111111111111113), np.float64(-0.33111111111111113), np.float64(-0.33111111111111113), np.float64(-0.33111111111111113), np.float64(-0.33)]","[1, 1, 1, 1, 1]","[0, 0, 0, 0, 0]","[0, 0, 0, 0, 0]","[0.22817024999949354, 0.6543779160001577, 1.0542033749998154, 1.4532191250000324, 1.8228124999995998]",None,,,0,14,14,14,43.355632667000464,,,,,,,,,,,,,,,,,,43.3507092079999,43.355632667000464,43.84847587500008,43.91112545800024,43.936281792000045,43.936281792000045,43.936281792000045,45.548110292000274,43.936281792000045,0.06056254200029798,43.936281792000045,43.936281792000045,43.936281792000045,45.73629795800025,3.4,3.4,0.3114428749995568,2.7,2.7,0.21471270799975173,6.1,6.1,0.2725862919996871,2.7,0.035029499999836844,"[np.float64(0.27111111111111114), np.float64(0.27111111111111114), np.float64(-0.008888888888888889), np.float64(-0.008888888888888889), np.float64(-0.08222222222222222)]","[np.float64(-0.33111111111111113), np.float64(-0.33111111111111113), np.float64(-0.33111111111111113), np.float64(-0.33111111111111113), np.float64(-0.33)]","[1, 1, 1, 1, 1]","[0, 0, 0, 0, 0]","[0, 0, 0, 0, 0]","[0.22817024999949354, 0.6543779160001577, 1.0542033749998154, 1.4532191250000324, 1.8228124999995998]",,,45.73651591700036,45.73655037499975,,,,,None,43.936281792000045,,,,,,,,,,,,,,,tt,k,2026-03-16_12h30.34.921,products_online,,2025.1.1,120.23825113377137,2026-03-16 12h30.44.195487 +0200,
Cheetos,taste,taste&health/Cheetos_taste.png,15,15,0,4.1,0.03432279200023913,"[np.float64(0.24888888888888888), np.float64(0.24888888888888888), np.float64(-0.17), np.float64(-0.17), np.float64(0.057777777777777775)]","[np.float64(-0.33), np.float64(-0.33111111111111113), np.float64(-0.33), np.float64(-0.33), np.float64(-0.33)]","[1, 1, 1, 1, 1]","[0, 0, 0, 0, 0]","[0, 0, 0, 0, 0]","[0.1743886249996649, 0.4990789590001441, 0.9051275000001624, 1.289222041999892, 1.6415160420001484]",None,,,0,15,15,15,45.74868658299965,,,,,,,,,,,,,,,,,,45.736674792000485,45.74868658299965,46.231530750000275,46.29190762500002,46.31638912499966,46.31638912499966,46.31638912499966,47.76310354199995,46.31638912499966,0.05537612500029354,46.31638912499966,46.31638912499966,46.31638912499966,47.93507929200041,1.8,1.8,0.19230241700006445,4.1,4.1,0.1977012500001365,5.9,5.9,0.21507633300007,4.1,0.03432279200023913,"[np.float64(0.24888888888888888), np.float64(0.24888888888888888), np.float64(-0.17), np.float64(-0.17), np.float64(0.057777777777777775)]","[np.float64(-0.33), np.float64(-0.33111111111111113), np.float64(-0.33), np.float64(-0.33), np.float64(-0.33)]","[1, 1, 1, 1, 1]","[0, 0, 0, 0, 0]","[0, 0, 0, 0, 0]","[0.1743886249996649, 0.4990789590001441, 0.9051275000001624, 1.289222041999892, 1.6415160420001484]",1,2,47.9353120830001,47.93534779200036,,,,,None,46.31638912499966,,,,,,,,,,,,,,,tt,k,2026-03-16_12h30.34.921,products_online,,2025.1.1,120.23825113377137,2026-03-16 12h30.44.195487 +0200,
Cornflakes,taste,taste&health/Cornflakes_taste.png,16,16,0,None,None,"[np.float64(0.08), np.float64(-0.016666666666666666), np.float64(0.08777777777777777)]","[np.float64(-0.33), np.float64(-0.33), np.float64(-0.33)]","[1, 1, 1]","[0, 0, 0]","[0, 0, 0]","[0.3020414170005097, 0.7599670839999817, 1.1649565000006987]",None,,,0,16,16,16,47.94051158300044,,,,,,,,,,,,,,,,,,47.93547495799976,47.94051158300044,48.43168725000032,48.481763833000514,48.50737745800052,48.50737745800052,48.50737745800052,49.59027141699971,48.50737745800052,0.04643366700020124,48.50737745800052,48.50737745800052,48.50737745800052,49.648854375000155,4.3,4.3,0.02978020800037484,4.4,4.4,0.08192729199981841,3.3,3.3,0.026307500000257278,None,None,"[np.float64(0.08), np.float64(-0.016666666666666666), np.float64(0.08777777777777777)]","[np.float64(-0.33), np.float64(-0.33), np.float64(-0.33)]","[1, 1, 1]","[0, 0, 0]","[0, 0, 0]","[0.3020414170005097, 0.7599670839999817, 1.1649565000006987]",,,49.64906866700039,49.649102458000016,,,,,None,48.50737745800052,,,,,,,,,,,,,,,tt,k,2026-03-16_12h30.34.921,products_online,,2025.1.1,120.23825113377137,2026-03-16 12h30.44.195487 +0200,
XL,original,taste&health/XL_original.png,17,17,0,None,None,"[np.float64(0.03), np.float64(0.03), np.float64(0.32), np.float64(0.32), np.float64(0.32)]","[np.float64(-0.33111111111111113), np.float64(-0.33111111111111113), np.float64(-0.33), np.float64(-0.33), np.float64(-0.33)]","[1, 1, 1, 1, 1]","[0, 0, 0, 0, 0]","[0, 0, 0, 0, 0]","[0.28956379200008087, 0.6108877500000744, 0.9831509169998753, 1.305603124999834, 1.641652083999361]",None,,,0,17,17,17,49.65420041700054,,,,,,,,,,,,,,,,,,49.649230541999714,49.65420041700054,50.13856416700037,50.19537837500047,50.220766874999754,50.220766874999754,50.220766874999754,51.749284333000105,50.220766874999754,0.046292584000184434,50.220766874999754,50.220766874999754,50.220766874999754,51.83919920800054,6.6,6.6,0.156695958000455,3.8,3.8,0.3355012499996519,6.6,6.6,0.11431029200048215,None,None,"[np.float64(0.03), np.float64(0.03), np.float64(0.32), np.float64(0.32), np.float64(0.32)]","[np.float64(-0.33111111111111113), np.float64(-0.33111111111111113), np.float64(-0.33), np.float64(-0.33), np.float64(-0.33)]","[1, 1, 1, 1, 1]","[0, 0, 0, 0, 0]","[0, 0, 0, 0, 0]","[0.28956379200008087, 0.6108877500000744, 0.9831509169998753, 1.305603124999834, 1.641652083999361]",,,51.83942566699989,51.839461292000124,,,,,None,50.220766874999754,,,,,,,,,,,,,,,tt,k,2026-03-16_12h30.34.921,products_online,,2025.1.1,120.23825113377137,2026-03-16 12h30.44.195487 +0200,
MangoFree,original,taste&health/MangoFree_original.png,18,18,0,6.7,0.007674375000533473,"[np.float64(-0.17666666666666667), np.float64(-0.17666666666666667), np.float64(-0.20666666666666667), np.float64(-0.20666666666666667), np.float64(0.33111111111111113)]","[np.float64(-0.33), np.float64(-0.33), np.float64(-0.33), np.float64(-0.33), np.float64(-0.33)]","[1, 1, 1, 1, 1]","[0, 0, 0, 0, 0]","[0, 0, 0, 0, 0]","[0.13809395899988886, 0.47827520899954834, 0.7770953749995897, 1.1628997500001788, 1.512643584000216]",None,,,0,18,18,18,51.84751187500024,,,,,,,,,,,,,,,,,,51.83958870800052,51.84751187500024,52.332006374999764,52.3889878330001,52.413156374999744,52.413156374999744,52.413156374999744,53.752449292000165,52.413156374999744,0.049543957999958366,52.413156374999744,52.413156374999744,52.413156374999744,53.90319954200004,6.7,6.7,0.17513879099988117,1.8,1.8,0.1757225000001199,1.5,1.5,0.12232537500040053,6.7,0.007674375000533473,"[np.float64(-0.17666666666666667), np.float64(-0.17666666666666667), np.float64(-0.20666666666666667), np.float64(-0.20666666666666667), np.float64(0.33111111111111113)]","[np.float64(-0.33), np.float64(-0.33), np.float64(-0.33), np.float64(-0.33), np.float64(-0.33)]","[1, 1, 1, 1, 1]","[0, 0, 0, 0, 0]","[0, 0, 0, 0, 0]","[0.13809395899988886, 0.47827520899954834, 0.7770953749995897, 1.1628997500001788, 1.512643584000216]",,,53.903419833000044,53.9034570419999,,,,,None,52.413156374999744,,,,,,,,,,,,,,,tt,k,2026-03-16_12h30.34.921,products_online,,2025.1.1,120.23825113377137,2026-03-16 12h30.44.195487 +0200,
Slimdelis,original,taste&health/Slimdelis_original.png,19,19,0,None,None,"[np.float64(0.3566666666666667), np.float64(0.3566666666666667), np.float64(-0.18888888888888888), np.float64(-0.18888888888888888), np.float64(-0.09111111111111111)]","[np.float64(-0.33), np.float64(-0.33), np.float64(-0.33), np.float64(-0.33), np.float64(-0.33)]","[1, 1, 1, 1, 1]","[0, 0, 0, 0, 0]","[0, 0, 0, 0, 0]","[0.12007016600000497, 0.42052083300040977, 0.7785254580003311, 1.1022856250001496, 1.440383582999857]",None,,,0,19,19,19,53.91549745799966,,,,,,,,,,,,,,,,,,53.903585457999725,53.91549745799966,54.40312733300016,54.46261837499969,54.48738583300019,54.48738583300019,54.48738583300019,55.78892870799973,54.48738583300019,0.05917616700025974,54.48738583300019,54.48738583300019,54.48738583300019,55.90458495799976,1.7,1.7,0.12019687500014697,2.6,2.6,0.13958704200013017,7.0,7.0,0.15915304099962668,None,None,"[np.float64(0.3566666666666667), np.float64(0.3566666666666667), np.float64(-0.18888888888888888), np.float64(-0.18888888888888888), np.float64(-0.09111111111111111)]","[np.float64(-0.33), np.float64(-0.33), np.float64(-0.33), np.float64(-0.33), np.float64(-0.33)]","[1, 1, 1, 1, 1]","[0, 0, 0, 0, 0]","[0, 0, 0, 0, 0]","[0.12007016600000497, 0.42052083300040977, 0.7785254580003311, 1.1022856250001496, 1.440383582999857]",,,55.904805291999764,55.904841874999875,,,,,None,54.48738583300019,,,,,,,,,,,,,,,tt,k,2026-03-16_12h30.34.921,products_online,,2025.1.1,120.23825113377137,2026-03-16 12h30.44.195487 +0200,
ChocolatePara,taste,taste&health/ChocolatePara_taste.png,20,20,0,1.4,0.007526082999902428,"[np.float64(0.21444444444444444), np.float64(0.21444444444444444), np.float64(-0.2833333333333333), np.float64(-0.2833333333333333), np.float64(-0.22111111111111112)]","[np.float64(-0.33), np.float64(-0.33), np.float64(-0.33), np.float64(-0.33), np.float64(-0.33)]","[1, 1, 1, 1, 1]","[0, 0, 0, 0, 0]","[0, 0, 0, 0, 0]","[0.18084595799973613, 0.5687099160004436, 0.9391457080000691, 1.303218666000248, 1.6174165410002388]",None,,,0,20,20,20,55.91559333300029,,,,,,,,,,,,,,,,,,55.90497899999991,55.91559333300029,56.39882879200013,56.44269633299973,56.46980979199998,56.46980979199998,56.46980979199998,57.94742487500025,56.46980979199998,0.03787575000023935,56.46980979199998,56.46980979199998,56.46980979199998,58.062702833,0.7,0.8,0.21966633400006685,5.6,5.6,0.2131397500006642,1.4,1.4,0.1407274579996738,1.4,0.007526082999902428,"[np.float64(0.21444444444444444), np.float64(0.21444444444444444), np.float64(-0.2833333333333333), np.float64(-0.2833333333333333), np.float64(-0.22111111111111112)]","[np.float64(-0.33), np.float64(-0.33), np.float64(-0.33), np.float64(-0.33), np.float64(-0.33)]","[1, 1, 1, 1, 1]","[0, 0, 0, 0, 0]","[0, 0, 0, 0, 0]","[0.18084595799973613, 0.5687099160004436, 0.9391457080000691, 1.303218666000248, 1.6174165410002388]",,,58.062915041999986,58.06295104200035,,,,,None,56.46980979199998,,,,,,,,,,,,,,,tt,k,2026-03-16_12h30.34.921,products_online,,2025.1.1,120.23825113377137,2026-03-16 12h30.44.195487 +0200,
Allin,health,taste&health/Allin_health.png,21,21,0,None,None,"[np.float64(-0.27666666666666667), np.float64(-0.27666666666666667), np.float64(0.12222222222222222), np.float64(0.12222222222222222), np.float64(-0.31222222222222223)]","[np.float64(-0.33), np.float64(-0.33111111111111113), np.float64(-0.33), np.float64(-0.33), np.float64(-0.33)]","[1, 1, 1, 1, 1]","[0, 0, 0, 0, 0]","[0, 0, 0, 0, 0]","[0.1955541670004095, 0.5611564999999246, 0.8972941250003714, 1.2439767089999805, 1.5980859999999666]",None,,,0,21,21,21,58.06853475000025,,,,,,,,,,,,,,,,,,58.06307645800007,58.06853475000025,58.55550500000027,58.607268083000235,58.63229245799994,58.63229245799994,58.63229245799994,60.07451658300033,58.63229245799994,0.04433420900022611,58.63229245799994,58.63229245799994,58.63229245799994,60.20766637500037,4.7,4.7,0.15979916700052854,1.4,0.8,0.2286584170005881,0.5,0.5,0.1570198330000494,None,None,"[np.float64(-0.27666666666666667), np.float64(-0.27666666666666667), np.float64(0.12222222222222222), np.float64(0.12222222222222222), np.float64(-0.31222222222222223)]","[np.float64(-0.33), np.float64(-0.33111111111111113), np.float64(-0.33), np.float64(-0.33), np.float64(-0.33)]","[1, 1, 1, 1, 1]","[0, 0, 0, 0, 0]","[0, 0, 0, 0, 0]","[0.1955541670004095, 0.5611564999999246, 0.8972941250003714, 1.2439767089999805, 1.5980859999999666]",,,60.20787716700033,60.20791216700036,,,,,None,58.63229245799994,,,,,,,,,,,,,,,tt,k,2026-03-16_12h30.34.921,products_online,,2025.1.1,120.23825113377137,2026-03-16 12h30.44.195487 +0200,
MangoFree,taste,taste&health/MangoFree_taste.png,22,22,0,0.4,0.006579709000106959,"[np.float64(-0.06666666666666667), np.float64(-0.06666666666666667), np.float64(0.35333333333333333), np.float64(0.35333333333333333), np.float64(-0.31777777777777777)]","[np.float64(-0.33), np.float64(-0.33), np.float64(-0.33), np.float64(-0.33), np.float64(-0.33)]","[1, 1, 1, 1, 1]","[0, 0, 0, 0, 0]","[0, 0, 0, 0, 0]","[0.17683158299951174, 0.5414689579993137, 0.8979192500000863, 1.2634131659997365, 1.6322025409999696]",None,,,0,22,22,22,60.215679042000374,,,,,,,,,,,,,,,,,,60.20803629199963,60.215679042000374,60.698619583000436,60.75475670800006,60.7801217920005,60.7801217920005,60.7801217920005,62.21868487499978,60.7801217920005,0.04686304200004088,60.7801217920005,60.7801217920005,60.7801217920005,62.38855841700024,2.9,2.9,0.21347737499945652,2.9,6.9,0.18218404199978977,0.4,0.4,0.19426937499974883,0.4,0.006579709000106959,"[np.float64(-0.06666666666666667), np.float64(-0.06666666666666667), np.float64(0.35333333333333333), np.float64(0.35333333333333333), np.float64(-0.31777777777777777)]","[np.float64(-0.33), np.float64(-0.33), np.float64(-0.33), np.float64(-0.33), np.float64(-0.33)]","[1, 1, 1, 1, 1]","[0, 0, 0, 0, 0]","[0, 0, 0, 0, 0]","[0.17683158299951174, 0.5414689579993137, 0.8979192500000863, 1.2634131659997365, 1.6322025409999696]",,,62.388779791999696,62.38881450000008,,,,,None,60.7801217920005,,,,,,,,,,,,,,,tt,k,2026-03-16_12h30.34.921,products_online,,2025.1.1,120.23825113377137,2026-03-16 12h30.44.195487 +0200,
Slimdelis,health,taste&health/Slimdelis_health.png,23,23,0,None,None,"[np.float64(0.2833333333333333), np.float64(0.2833333333333333), np.float64(-0.06222222222222222), np.float64(-0.06222222222222222), np.float64(-0.07777777777777778)]","[np.float64(-0.33), np.float64(-0.33), np.float64(-0.33), np.float64(-0.33), np.float64(-0.33)]","[1, 1, 1, 1, 1]","[0, 0, 0, 0, 0]","[0, 0, 0, 0, 0]","[0.22624650000034308, 0.5880415830006314, 0.9007019580003544, 1.117480417000479, 1.4871168330000728]",None,,,0,23,23,23,62.399163125000086,,,,,,,,,,,,,,,,,,62.38894220800012,62.399163125000086,62.88281541700053,62.93617508300031,62.9612975,62.9612975,62.9612975,64.38682104200052,62.9612975,0.04737791700063099,62.9612975,62.9612975,62.9612975,64.42581929199969,2.9,2.9,0.1380816249993586,2.7,2.7,0.062387124999986554,6.3,6.3,0.26809504100037884,None,None,"[np.float64(0.2833333333333333), np.float64(0.2833333333333333), np.float64(-0.06222222222222222), np.float64(-0.06222222222222222), np.float64(-0.07777777777777778)]","[np.float64(-0.33), np.float64(-0.33), np.float64(-0.33), np.float64(-0.33), np.float64(-0.33)]","[1, 1, 1, 1, 1]","[0, 0, 0, 0, 0]","[0, 0, 0, 0, 0]","[0.22624650000034308, 0.5880415830006314, 0.9007019580003544, 1.117480417000479, 1.4871168330000728]",,,64.42603450000024,64.42606912500014,,,,,None,62.9612975,,,,,,,,,,,,,,,tt,k,2026-03-16_12h30.34.921,products_online,,2025.1.1,120.23825113377137,2026-03-16 12h30.44.195487 +0200,
ChocolatePara,health,taste&health/ChocolatePara_health.png,24,24,0,5.3,0.006535875000736269,"[np.float64(0.1711111111111111), np.float64(0.1711111111111111), np.float64(0.09444444444444444), np.float64(0.09444444444444444), np.float64(0.18888888888888888)]","[np.float64(-0.33), np.float64(-0.33), np.float64(-0.33), np.float64(-0.33), np.float64(-0.33)]","[1, 1, 1, 1, 1]","[0, 0, 0, 0, 0]","[0, 0, 0, 0, 0]","[0.15679129199997988, 0.45365762500023266, 0.8198377500002607, 1.1495756670001356, 1.5037892079999438]",None,,,0,24,24,24,64.4324646670002,,,,,,,,,,,,,,,,,,64.42620279200037,64.4324646670002,64.91567170800045,64.96662345799996,64.99184220799998,64.99184220799998,64.99184220799998,66.33945162500004,64.99184220799998,0.040572165999947174,64.99184220799998,64.99184220799998,64.99184220799998,66.4726450420003,5.2,5.2,0.18835066700012248,5.3,5.3,0.15759683299984317,5.2,4.4,0.12782370799959608,5.3,0.006535875000736269,"[np.float64(0.1711111111111111), np.float64(0.1711111111111111), np.float64(0.09444444444444444), np.float64(0.09444444444444444), np.float64(0.18888888888888888)]","[np.float64(-0.33), np.float64(-0.33), np.float64(-0.33), np.float64(-0.33), np.float64(-0.33)]","[1, 1, 1, 1, 1]","[0, 0, 0, 0, 0]","[0, 0, 0, 0, 0]","[0.15679129199997988, 0.45365762500023266, 0.8198377500002607, 1.1495756670001356, 1.5037892079999438]",,,66.47288404200026,66.47292045799986,,,,,None,64.99184220799998,,,,,,,,,,,,,,,tt,k,2026-03-16_12h30.34.921,products_online,,2025.1.1,120.23825113377137,2026-03-16 12h30.44.195487 +0200,
XL,taste,taste&health/XL_taste.png,25,25,0,5.6,0.008375542000067071,"[np.float64(0.2288888888888889), np.float64(0.2288888888888889), np.float64(0.18666666666666668), np.float64(0.18666666666666668), np.float64(0.21222222222222223)]","[np.float64(-0.33), np.float64(-0.33), np.float64(-0.33), np.float64(-0.33), np.float64(-0.33)]","[1, 1, 1, 1, 1]","[0, 0, 0, 0, 0]","[0, 0, 0, 0, 0]","[0.12061974999960512, 0.46589750000021013, 0.856721624999409, 1.2226685409996207, 1.5812727499996981]",None,,,0,25,25,25,66.48260358300013,,,,,,,,,,,,,,,,,,66.47304812499988,66.48260358300013,66.96584795800027,67.01958712499982,67.04569941699992,67.04569941699992,67.04569941699992,68.44447895800022,67.04569941699992,0.046684832999744685,67.04569941699992,67.04569941699992,67.04569941699992,68.60307637500046,5.6,5.6,0.18371070800003508,5.7,5.7,0.16456662500058883,5.3,5.3,0.19509637500050303,5.6,0.008375542000067071,"[np.float64(0.2288888888888889), np.float64(0.2288888888888889), np.float64(0.18666666666666668), np.float64(0.18666666666666668), np.float64(0.21222222222222223)]","[np.float64(-0.33), np.float64(-0.33), np.float64(-0.33), np.float64(-0.33), np.float64(-0.33)]","[1, 1, 1, 1, 1]","[0, 0, 0, 0, 0]","[0, 0, 0, 0, 0]","[0.12061974999960512, 0.46589750000021013, 0.856721624999409, 1.2226685409996207, 1.5812727499996981]",,,68.60330970799987,68.60334624999996,,,,,None,67.04569941699992,,,,,,,,,,,,,,,tt,k,2026-03-16_12h30.34.921,products_online,,2025.1.1,120.23825113377137,2026-03-16 12h30.44.195487 +0200,
Slimdelis,taste,taste&health/Slimdelis_taste.png,26,26,0,None,None,"[np.float64(0.042222222222222223), np.float64(0.042222222222222223), np.float64(0.056666666666666664), np.float64(0.056666666666666664), np.float64(0.22333333333333333)]","[np.float64(-0.33), np.float64(-0.33), np.float64(-0.33), np.float64(-0.33), np.float64(-0.33)]","[1, 1, 1, 1, 1]","[0, 0, 0, 0, 0]","[0, 0, 0, 0, 0]","[0.137467167000068, 0.3952537080003822, 0.6985297080000237, 0.9583007080000243, 1.2652280000002065]",None,,,0,26,26,26,68.60846795799989,,,,,,,,,,,,,,,,,,68.6034818750004,68.60846795799989,69.0988542920004,69.15566679200037,69.17979995800033,69.17979995800033,69.17979995800033,70.42065166700013,69.17979995800033,0.0523370420005449,69.17979995800033,69.17979995800033,69.17979995800033,70.4224881250002,4.1,4.1,0.02642379200005962,5.7,5.7,0.026524500000050466,3.9,3.9,0.17639162500017846,None,None,"[np.float64(0.042222222222222223), np.float64(0.042222222222222223), np.float64(0.056666666666666664), np.float64(0.056666666666666664), np.float64(0.22333333333333333)]","[np.float64(-0.33), np.float64(-0.33), np.float64(-0.33), np.float64(-0.33), np.float64(-0.33)]","[1, 1, 1, 1, 1]","[0, 0, 0, 0, 0]","[0, 0, 0, 0, 0]","[0.137467167000068, 0.3952537080003822, 0.6985297080000237, 0.9583007080000243, 1.2652280000002065]",,,70.42271291700035,70.42274912500034,,,,,None,69.17979995800033,,,,,,,,,,,,,,,tt,k,2026-03-16_12h30.34.921,products_online,,2025.1.1,120.23825113377137,2026-03-16 12h30.44.195487 +0200,
Cornflakes,original,taste&health/Cornflakes_original.png,27,27,0,4.3,0.034355124999819964,"[np.float64(0.2411111111111111), np.float64(-0.29555555555555557), np.float64(-0.29555555555555557), np.float64(0.08222222222222222)]","[np.float64(-0.3333333333333333), np.float64(-0.33), np.float64(-0.33111111111111113), np.float64(-0.33)]","[1, 1, 1, 1]","[0, 0, 0, 0]","[0, 0, 0, 0]","[0.43690274999971734, 1.087828583999908, 1.4981874169998264, 1.900431916999878]",None,,,0,27,27,27,70.432687042,,,,,,,,,,,,,,,,,,70.42287387499982,70.432687042,70.91593841699978,70.97205633300018,70.99662524999985,70.99662524999985,70.99662524999985,72.62802345799992,70.99662524999985,0.04932470800031297,70.99662524999985,70.99662524999985,70.99662524999985,72.87406279199968,4.3,4.3,0.27153487499981566,0.6,0.6,0.12240533300064271,5.8,5.8,0.4697870410000178,4.3,0.034355124999819964,"[np.float64(0.2411111111111111), np.float64(-0.29555555555555557), np.float64(-0.29555555555555557), np.float64(0.08222222222222222)]","[np.float64(-0.3333333333333333), np.float64(-0.33), np.float64(-0.33111111111111113), np.float64(-0.33)]","[1, 1, 1, 1]","[0, 0, 0, 0]","[0, 0, 0, 0]","[0.43690274999971734, 1.087828583999908, 1.4981874169998264, 1.900431916999878]",,,72.87428279200049,72.87431854199986,,,,,None,70.99662524999985,,,,,,,,,,,,,,,tt,k,2026-03-16_12h30.34.921,products_online,,2025.1.1,120.23825113377137,2026-03-16 12h30.44.195487 +0200,
Cheetos,original,taste&health/Cheetos_original.png,28,28,0,2.9,0.033977459000197996,"[np.float64(0.29777777777777775), np.float64(-0.26222222222222225), np.float64(-0.26222222222222225), np.float64(-0.058888888888888886)]","[np.float64(-0.33), np.float64(-0.33), np.float64(-0.33), np.float64(-0.3322222222222222)]","[1, 1, 1, 1]","[0, 0, 0, 0]","[0, 0, 0, 0]","[0.23890374999973574, 0.6611297919998833, 1.1087774999996327, 1.523007959000097]",2,2.2296722910004974,None,0,28,28,28,72.88252187499984,,,,,,,,,,,,,,,,,,72.87445470800048,72.88252187499984,73.3659380830004,73.43312670799969,73.45908874999986,73.45908874999986,73.45908874999986,74.65636579199963,73.45908874999986,0.058826458999647,73.45908874999986,73.45908874999986,73.45908874999986,74.95780395800011,2.9,2.9,0.32680987500043557,1.0,1.0,0.1393616250006744,6.4,6.4,0.0450224590003927,2.9,0.033977459000197996,"[np.float64(0.29777777777777775), np.float64(-0.26222222222222225), np.float64(-0.26222222222222225), np.float64(-0.058888888888888886)]","[np.float64(-0.33), np.float64(-0.33), np.float64(-0.33), np.float64(-0.3322222222222222)]","[1, 1, 1, 1]","[0, 0, 0, 0]","[0, 0, 0, 0]","[0.23890374999973574, 0.6611297919998833, 1.1087774999996327, 1.523007959000097]",2,2,74.97089912499996,77.21702987499975,Cheetos,Cheetos,1,2.2296722910004974,2,73.45908874999986,74.97702829199989,74.97702829199989,74.97702829199989,74.97702829199989,74.97702829199989,2.2296722910004974,None,,,,,,,,tt,k,2026-03-16_12h30.34.921,products_online,,2025.1.1,120.23825113377137,2026-03-16 12h30.44.195487 +0200,
Tamar,taste,taste&health/Tamar_taste.png,29,29,0,0.1,0.008121750000100292,"[np.float64(0.29333333333333333), np.float64(0.29333333333333333), np.float64(-0.13555555555555557), np.float64(-0.13555555555555557), np.float64(-0.3522222222222222)]","[np.float64(-0.33), np.float64(-0.33), np.float64(-0.33), np.float64(-0.33), np.float64(-0.33)]","[1, 1, 1, 1, 1]","[0, 0, 0, 0, 0]","[0, 0, 0, 0, 0]","[1.1215712499997608, 1.5459155419994204, 1.9986500420000084, 2.4060511249999763, 2.864846833000229]",None,,,0,29,29,29,77.22748574999969,,,,,,,,,,,,,,,,,,77.21741058299995,77.22748574999969,77.716027167,77.77776783300033,77.80623837500025,77.80623837500025,77.80623837500025,80.34413649999988,77.80623837500025,0.06067679199986742,77.80623837500025,77.80623837500025,77.80623837500025,80.64423862500007,2.2,2.2,0.34424016599950846,6.4,6.4,1.1563050830000066,0.1,0.1,0.32591712500016,0.1,0.008121750000100292,"[np.float64(0.29333333333333333), np.float64(0.29333333333333333), np.float64(-0.13555555555555557), np.float64(-0.13555555555555557), np.float64(-0.3522222222222222)]","[np.float64(-0.33), np.float64(-0.33), np.float64(-0.33), np.float64(-0.33), np.float64(-0.33)]","[1, 1, 1, 1, 1]","[0, 0, 0, 0, 0]","[0, 0, 0, 0, 0]","[1.1215712499997608, 1.5459155419994204, 1.9986500420000084, 2.4060511249999763, 2.864846833000229]",,,80.64446083300027,80.64449566700023,,,,,None,77.80623837500025,,,,,,,,,,,,,,,tt,k,2026-03-16_12h30.34.921,products_online,,2025.1.1,120.23825113377137,2026-03-16 12h30.44.195487 +0200,
CocaColaZero,original,taste&health/CocaColaZero_original.png,30,30,0,None,None,"[np.float64(0.3011111111111111), np.float64(0.3011111111111111), np.float64(0.3377777777777778), np.float64(0.3377777777777778), np.float64(-0.18888888888888888)]","[np.float64(-0.33), np.float64(-0.33), np.float64(-0.33), np.float64(-0.33), np.float64(-0.33)]","[1, 1, 1, 1, 1]","[0, 0, 0, 0, 0]","[0, 0, 0, 0, 0]","[0.24843816599968704, 0.6713866250001956, 1.0652019579993066, 1.4261962499995207, 1.8692806660001224]",3,5.594251583000187,None,0,30,30,30,80.65021720799996,,,,,,,,,,,,,,,,,,80.64462275000005,80.65021720799996,81.13309545799984,81.19424762499966,81.21934483299992,81.21934483299992,81.21934483299992,82.82170425000004,81.21934483299992,0.0497698750004929,81.21934483299992,81.21934483299992,81.21934483299992,83.06528970799991,6.4,6.4,0.28774529099973734,1.7,1.7,0.26761141600036353,6.8,6.8,0.2870789999997214,None,None,"[np.float64(0.3011111111111111), np.float64(0.3011111111111111), np.float64(0.3377777777777778), np.float64(0.3377777777777778), np.float64(-0.18888888888888888)]","[np.float64(-0.33), np.float64(-0.33), np.float64(-0.33), np.float64(-0.33), np.float64(-0.33)]","[1, 1, 1, 1, 1]","[0, 0, 0, 0, 0]","[0, 0, 0, 0, 0]","[0.24843816599968704, 0.6713866250001956, 1.0652019579993066, 1.4261962499995207, 1.8692806660001224]",2,2,83.07750912499978,88.68406887499987,CocaColaZero,Tamar,0,5.594251583000187,3,81.21934483299992,83.08353720800005,83.08353720800005,83.08353720800005,83.08353720800005,83.08353720800005,5.594251583000187,None,,,,,,,,tt,k,2026-03-16_12h30.34.921,products_online,,2025.1.1,120.23825113377137,2026-03-16 12h30.44.195487 +0200,
Tamar,original,taste&health/Tamar_original.png,31,31,0,None,None,"[np.float64(0.042222222222222223), np.float64(0.042222222222222223), np.float64(0.21), np.float64(0.21)]","[np.float64(-0.33), np.float64(-0.33), np.float64(-0.33), np.float64(-0.33)]","[1, 1, 1, 1]","[0, 0, 0, 0]","[0, 0, 0, 0]","[0.39506875000006403, 0.7128614590001234, 1.226321375000225, 1.6739005839999663]",None,,,0,31,31,31,88.69397637499969,,,,,,,,,,,,,,,,,,88.68444708300012,88.69397637499969,89.18306829199992,89.23172062499998,89.25696900000003,89.25696900000003,89.25696900000003,91.02077154200015,89.25696900000003,0.04759554100019159,89.25696900000003,89.25696900000003,89.25696900000003,91.02232804200048,4.8,4.8,0.029353083000387414,3.9,3.9,0.4341298330000427,5.5,5.6,0.29472420799993415,None,None,"[np.float64(0.042222222222222223), np.float64(0.042222222222222223), np.float64(0.21), np.float64(0.21)]","[np.float64(-0.33), np.float64(-0.33), np.float64(-0.33), np.float64(-0.33)]","[1, 1, 1, 1]","[0, 0, 0, 0]","[0, 0, 0, 0]","[0.39506875000006403, 0.7128614590001234, 1.226321375000225, 1.6739005839999663]",,,91.02252670800044,91.02256283299994,,,,,None,89.25696900000003,,,,,,,,,,,,,,,tt,k,2026-03-16_12h30.34.921,products_online,,2025.1.1,120.23825113377137,2026-03-16 12h30.44.195487 +0200,
Cheetos,health,taste&health/Cheetos_health.png,32,32,0,None,None,"[np.float64(-0.29888888888888887), np.float64(-0.19444444444444445), np.float64(0.25)]","[np.float64(-0.33), np.float64(-0.33), np.float64(-0.33)]","[1, 1, 1]","[0, 0, 0]","[0, 0, 0]","[0.359351666999828, 1.136944584000048, 1.8798124999993888]",None,,,0,32,32,32,91.0333147500005,,,,,,,,,,,,,,,,,,91.02268829199966,91.0333147500005,91.51651904200025,91.58079029200053,91.605865042,91.605865042,91.605865042,93.29181054200035,91.605865042,0.05824466600006417,91.605865042,91.605865042,91.605865042,93.4623528330003,1.6,1.6,0.27217462499993417,5.9,5.9,0.1973906250004802,0.6,0.6,0.4054812499998661,None,None,"[np.float64(-0.29888888888888887), np.float64(-0.19444444444444445), np.float64(0.25)]","[np.float64(-0.33), np.float64(-0.33), np.float64(-0.33)]","[1, 1, 1]","[0, 0, 0]","[0, 0, 0]","[0.359351666999828, 1.136944584000048, 1.8798124999993888]",3,2,93.46253683299983,93.46257137500015,,,,,None,91.605865042,,,,,,,,,,,,,,,tt,k,2026-03-16_12h30.34.921,products_online,,2025.1.1,120.23825113377137,2026-03-16 12h30.44.195487 +0200,
Tapuchips,health,taste&health/Tapuchips_health.png,33,33,0,None,None,"[np.float64(0.29888888888888887), np.float64(0.1288888888888889)]","[np.float64(-0.33), np.float64(-0.33)]","[1, 1]","[0, 0]","[0, 0]","[0.5809321250007997, 1.1349287920002098]",3,1.723558249999769,None,0,33,33,33,93.4683685,,,,,,,,,,,,,,,,,,93.46269725000002,93.4683685,93.95674741699986,94.01837095799965,94.04371829200045,94.04371829200045,94.04371829200045,95.15385904200048,94.04371829200045,0.055820542000219575,94.04371829200045,94.04371829200045,94.04371829200045,95.1556540419997,6.4,6.4,0.04833558400059701,4.8,4.8,0.029542291999860026,0.2,0.2,0.04434454199963511,None,None,"[np.float64(0.29888888888888887), np.float64(0.1288888888888889)]","[np.float64(-0.33), np.float64(-0.33)]","[1, 1]","[0, 0]","[0, 0]","[0.5809321250007997, 1.1349287920002098]",3,3,95.1661717500001,96.90093129199977,Tapuchips,Tapuchips,1,1.723558249999769,3,94.04371829200045,95.17243445799977,95.17243445799977,95.17243445799977,95.17243445799977,95.17243445799977,1.723558249999769,None,,,,,,,,tt,k,2026-03-16_12h30.34.921,products_online,,2025.1.1,120.23825113377137,2026-03-16 12h30.44.195487 +0200,
CocaColaZero,health,taste&health/CocaColaZero_health.png,34,34,0,None,None,"[np.float64(-0.29333333333333333), np.float64(-0.29333333333333333), np.float64(-0.30666666666666664), np.float64(-0.30666666666666664)]","[np.float64(-0.33), np.float64(-0.33), np.float64(-0.33), np.float64(-0.33111111111111113)]","[1, 1, 1, 1]","[0, 0, 0, 0]","[0, 0, 0, 0]","[0.28927629200006777, 0.6880455419995997, 1.1544293750002907, 1.6819404580000992]",None,,,0,34,34,34,96.91073454199977,,,,,,,,,,,,,,,,,,96.901302708,96.91073454199977,97.40001266699983,97.46546087499974,97.49867416699999,97.49867416699999,97.49867416699999,99.180921958,97.49867416699999,0.06447724999998172,97.49867416699999,97.49867416699999,97.49867416699999,99.18583124999986,0.6,0.7,0.33255812500010506,0.5,6.0,0.03336570800001937,0.5,0.5,0.33686587499960297,None,None,"[np.float64(-0.29333333333333333), np.float64(-0.29333333333333333), np.float64(-0.30666666666666664), np.float64(-0.30666666666666664)]","[np.float64(-0.33), np.float64(-0.33), np.float64(-0.33), np.float64(-0.33111111111111113)]","[1, 1, 1, 1]","[0, 0, 0, 0]","[0, 0, 0, 0]","[0.28927629200006777, 0.6880455419995997, 1.1544293750002907, 1.6819404580000992]",3,2,99.18603641699974,99.1860737500001,,,,,None,97.49867416699999,,,,,,,,,,,,,,,tt,k,2026-03-16_12h30.34.921,products_online,,2025.1.1,120.23825113377137,2026-03-16 12h30.44.195487 +0200,
Allin,original,taste&health/Allin_original.png,35,35,0,None,None,"[np.float64(-0.06222222222222222), np.float64(-0.06111111111111111), np.float64(0.23666666666666666), np.float64(0.0011111111111111111)]","[np.float64(-0.33), np.float64(-0.3333333333333333), np.float64(-0.33111111111111113), np.float64(-0.3322222222222222)]","[1, 1, 1, 1]","[0, 0, 0, 0]","[0, 0, 0, 0]","[0.33986279200053104, 0.8665161250000892, 1.28395833400009, 1.781932124999912]",None,,,0,35,35,35,99.19125562499994,,,,,,,,,,,,,,,,,,99.18620991700027,99.19125562499994,99.68341433299975,99.73322850000022,99.75797066700034,99.75797066700034,99.75797066700034,101.19653258299968,99.75797066700034,0.04717325000001438,99.75797066700034,99.75797066700034,99.75797066700034,101.5167703750003,3.5,3.5,0.3466965830002664,2.9,5.8,0.0343336250007269,2.9,2.9,0.3745835829995485,None,None,"[np.float64(-0.06222222222222222), np.float64(-0.06111111111111111), np.float64(0.23666666666666666), np.float64(0.0011111111111111111)]","[np.float64(-0.33), np.float64(-0.3333333333333333), np.float64(-0.33111111111111113), np.float64(-0.3322222222222222)]","[1, 1, 1, 1]","[0, 0, 0, 0]","[0, 0, 0, 0]","[0.33986279200053104, 0.8665161250000892, 1.28395833400009, 1.781932124999912]",,,101.51696987499963,101.51700629199968,,,,,None,99.75797066700034,,,,,,,,,,,,,,,tt,k,2026-03-16_12h30.34.921,products_online,,2025.1.1,120.23825113377137,2026-03-16 12h30.44.195487 +0200,
ChocolatePara,original,taste&health/ChocolatePara_original.png,36,36,0,6.2,0.008012040999346937,"[np.float64(-0.3522222222222222), np.float64(-0.13666666666666666), np.float64(-0.13666666666666666), np.float64(0.2722222222222222)]","[np.float64(-0.3322222222222222), np.float64(-0.3322222222222222), np.float64(-0.3322222222222222), np.float64(-0.33111111111111113)]","[1, 1, 1, 1]","[0, 0, 0, 0]","[0, 0, 0, 0]","[0.4030608339999162, 0.8934773340006359, 1.2538123750000523, 1.738010292000581]",None,,,0,36,36,36,101.5222603330003,,,,,,,,,,,,,,,,,,101.51713458300037,101.5222603330003,102.00647237500016,102.05262550000043,102.0777842919997,102.0777842919997,102.0777842919997,103.50961016699966,102.0777842919997,0.03563512500022625,102.0777842919997,102.0777842919997,102.0777842919997,103.79237612500037,0.1,0.1,0.03620670800046355,2.2,2.2,0.35746716699941317,2.2,6.2,0.3109237500002564,6.2,0.008012040999346937,"[np.float64(-0.3522222222222222), np.float64(-0.13666666666666666), np.float64(-0.13666666666666666), np.float64(0.2722222222222222)]","[np.float64(-0.3322222222222222), np.float64(-0.3322222222222222), np.float64(-0.3322222222222222), np.float64(-0.33111111111111113)]","[1, 1, 1, 1]","[0, 0, 0, 0]","[0, 0, 0, 0]","[0.4030608339999162, 0.8934773340006359, 1.2538123750000523, 1.738010292000581]",,,103.79259066699979,103.79262550000021,,,,,None,102.0777842919997,,,,,,,,,,,,,,,tt,k,2026-03-16_12h30.34.921,products_online,,2025.1.1,120.23825113377137,2026-03-16 12h30.44.195487 +0200,
MangoFree,health,taste&health/MangoFree_health.png,37,37,0,None,None,"[np.float64(-0.31333333333333335), np.float64(-0.31333333333333335), np.float64(-0.09777777777777778), np.float64(-0.09777777777777778)]","[np.float64(-0.33111111111111113), np.float64(-0.3322222222222222), np.float64(-0.33111111111111113), np.float64(-0.33111111111111113)]","[1, 1, 1, 1]","[0, 0, 0, 0]","[0, 0, 0, 0]","[0.3055562089994055, 0.6672195419996569, 1.1555732919996444, 1.580811709000045]",None,,,0,37,37,37,103.79942154200035,,,,,,,,,,,,,,,,,,103.79275212500033,103.79942154200035,104.28352408299997,104.33742662500026,104.36209574999975,104.36209574999975,104.36209574999975,106.05555766700036,104.36209574999975,0.04481895899971278,104.36209574999975,104.36209574999975,104.36209574999975,106.05711412500023,2.5,2.6,0.31727849999970203,0.5,0.5,0.3450042089998533,3.5,3.5,0.028771874999620195,None,None,"[np.float64(-0.31333333333333335), np.float64(-0.31333333333333335), np.float64(-0.09777777777777778), np.float64(-0.09777777777777778)]","[np.float64(-0.33111111111111113), np.float64(-0.3322222222222222), np.float64(-0.33111111111111113), np.float64(-0.33111111111111113)]","[1, 1, 1, 1]","[0, 0, 0, 0]","[0, 0, 0, 0]","[0.3055562089994055, 0.6672195419996569, 1.1555732919996444, 1.580811709000045]",,,106.05730525000035,106.05733995799983,,,,,None,104.36209574999975,,,,,,,,,,,,,,,tt,k,2026-03-16_12h30.34.921,products_online,,2025.1.1,120.23825113377137,2026-03-16 12h30.44.195487 +0200,
Allin,taste,taste&health/Allin_taste.png,38,38,0,0.5,0.007376874999863503,"[np.float64(0.16333333333333333), np.float64(0.16333333333333333), np.float64(0.02666666666666667), np.float64(-0.30777777777777776)]","[np.float64(-0.33111111111111113), np.float64(-0.3333333333333333), np.float64(-0.33), np.float64(-0.33111111111111113)]","[1, 1, 1, 1]","[0, 0, 0, 0]","[0, 0, 0, 0]","[0.32101179200071783, 0.7869595830006801, 1.2607358750001367, 1.7991858330005925]",None,,,0,38,38,38,106.0670287920002,,,,,,,,,,,,,,,,,,106.05746499999987,106.0670287920002,106.55050587500045,106.60852549999981,106.63317499999994,106.63317499999994,106.63317499999994,108.05302133300029,106.63317499999994,0.051204708999648574,106.63317499999994,106.63317499999994,106.63317499999994,108.40930237500015,0.5,0.5,0.3838118329995268,5.1,5.1,0.36035712499960937,3.8,3.8,0.0292255419999492,0.5,0.007376874999863503,"[np.float64(0.16333333333333333), np.float64(0.16333333333333333), np.float64(0.02666666666666667), np.float64(-0.30777777777777776)]","[np.float64(-0.33111111111111113), np.float64(-0.3333333333333333), np.float64(-0.33), np.float64(-0.33111111111111113)]","[1, 1, 1, 1]","[0, 0, 0, 0]","[0, 0, 0, 0]","[0.32101179200071783, 0.7869595830006801, 1.2607358750001367, 1.7991858330005925]",,,108.40949833299965,108.40953245800029,,,,,None,106.63317499999994,,,,,,,,,,,,,,,tt,k,2026-03-16_12h30.34.921,products_online,,2025.1.1,120.23825113377137,2026-03-16 12h30.44.195487 +0200,
,,,,,,,,,,,,,,,,,,,,,,,,,,,,,,,,,,,,,,,,,,,,,,,,,,,,,,,,,,,,,,,,,,,,,,,,,,,,,,,,,,,,,,,108.40961620800044,108.41692983299981,108.41692983299981,109.56824962500013,space,1.1439537920005023,None,tt,k,2026-03-16_12h30.34.921,products_online,,2025.1.1,120.23825113377137,2026-03-16 12h30.44.195487 +0200,
